Folder: TIF120-LSPR-Lab-data-Analysis/Data from lab

Note: Data from lab/LSPR_Exp2_Group1.txt
Version	1
Run name	C:\Users\Jenny\Desktop\David A\Lab2023_09_27\EXP2Group1.inr
Export time	2023-09-27 09:12
Pos1 sample	Label for Pos1
Pos2 sample	
Spectrometer integration time	2,6
Spectrometer sample averages	100
pos1-PeakPos_x	pos1-PeakPos_y
2.968750E-1	7.617344E2
1.281250E0	7.617263E2
2.281250E0	7.617281E2
3.281250E0	7.617320E2
4.281250E0	7.617371E2
5.281250E0	7.617350E2
6.281250E0	7.617372E2
7.296875E0	7.617299E2
8.281250E0	7.617225E2
9.281250E0	7.617181E2
1.028125E1	7.617257E2
1.128125E1	7.617214E2
1.228125E1	7.617319E2
1.328125E1	7.617267E2
1.428125E1	7.617259E2
1.528125E1	7.617319E2
1.628125E1	7.617291E2
1.728125E1	7.617231E2
1.828125E1	7.617224E2
1.928125E1	7.617293E2
2.028125E1	7.617207E2
2.128125E1	7.617173E2
2.228125E1	7.617253E2
2.328125E1	7.617273E2
2.428125E1	7.617241E2
2.528125E1	7.617222E2
2.628125E1	7.617307E2
2.728125E1	7.617217E2
2.828125E1	7.617116E2
2.928125E1	7.617193E2
3.028125E1	7.617229E2
3.128125E1	7.617267E2
3.228125E1	7.617269E2
3.328125E1	7.617167E2
3.428125E1	7.617271E2
3.528125E1	7.617133E2
3.628125E1	7.617138E2
3.728125E1	7.617185E2
3.828125E1	7.617192E2
3.928125E1	7.617249E2
4.028125E1	7.617282E2
4.128125E1	7.617194E2
4.228125E1	7.617243E2
4.328125E1	7.617193E2
4.428125E1	7.617173E2
4.528125E1	7.617205E2
4.628125E1	7.617152E2
4.728125E1	7.617146E2
4.828125E1	7.617167E2
4.928125E1	7.617313E2
5.028125E1	7.617197E2
5.128125E1	7.617162E2
5.228125E1	7.617230E2
5.328125E1	7.617185E2
5.428125E1	7.617261E2
5.528125E1	7.617227E2
5.628125E1	7.617204E2
5.728125E1	7.617206E2
5.828125E1	7.617179E2
5.928125E1	7.617133E2
6.028125E1	7.617208E2
6.128125E1	7.617224E2
6.228125E1	7.617251E2
6.328125E1	7.617098E2
6.428125E1	7.617166E2
6.528125E1	7.617136E2
6.628125E1	7.617140E2
6.728125E1	7.617260E2
6.828125E1	7.617179E2
6.928125E1	7.617157E2
7.028125E1	7.617177E2
7.128125E1	7.617105E2
7.228125E1	7.617162E2
7.328125E1	7.617249E2
7.428125E1	7.617077E2
7.528125E1	7.617200E2
7.628125E1	7.617144E2
7.728125E1	7.617118E2
7.828125E1	7.617253E2
7.928125E1	7.617095E2
8.028125E1	7.617116E2
8.128125E1	7.617223E2
8.228125E1	7.617136E2
8.328125E1	7.617167E2
8.428125E1	7.617083E2
8.528125E1	7.617130E2
8.628125E1	7.617137E2
8.728125E1	7.617205E2
8.828125E1	7.617161E2
8.928125E1	7.617130E2
9.028125E1	7.617147E2
9.128125E1	7.617152E2
9.228125E1	7.617190E2
9.328125E1	7.617118E2
9.428125E1	7.617138E2
9.528125E1	7.617105E2
9.628125E1	7.617117E2
9.728125E1	7.617044E2
9.828125E1	7.617134E2
9.928125E1	7.617150E2
1.002813E2	7.617057E2
1.012813E2	7.617051E2
1.022813E2	7.617123E2
1.032813E2	7.617058E2
1.042813E2	7.617101E2
1.052813E2	7.617143E2
1.062813E2	7.617031E2
1.072813E2	7.617059E2
1.082813E2	7.617068E2
1.092813E2	7.617079E2
1.102813E2	7.617132E2
1.112813E2	7.617070E2
1.122813E2	7.616973E2
1.132813E2	7.617085E2
1.142813E2	7.617139E2
1.152813E2	7.617178E2
1.162813E2	7.617167E2
1.172813E2	7.617074E2
1.182813E2	7.617085E2
1.192813E2	7.617072E2
1.202813E2	7.617083E2
1.212813E2	7.617111E2
1.222813E2	7.617106E2
1.232813E2	7.617108E2
1.242813E2	7.617085E2
1.25

File: Part1_Group1_20230927.csv
Reference_SiO2,,Sample_A,,Sample_B,,Sample_C,,Sample_D,,Sample_E,,Sample_F,,Sample_G,,Sample_G_flipped,,
Wavelength (nm),Abs,Wavelength (nm),Abs,Wavelength (nm),Abs,Wavelength (nm),Abs,Wavelength (nm),Abs,Wavelength (nm),Abs,Wavelength (nm),Abs,Wavelength (nm),Abs,Wavelength (nm),Abs,
1100.01,-0.00434131,1100.01,0.0227445,1100.01,0.035789,1100.01,0.0206498,1100.01,0.00443365,1100.01,0.0175599,1100.01,0.0150126,1100.01,0.0139259,1100.01,0.00276382,
1086,-0.000490055,1086,0.00782855,1086,0.0352351,1086,0.0127842,1086,0.00246415,1086,0.0251765,1086,0.00548276,1086,0.0206568,1086,-0.000915553,
1072.01,0.00275697,1072.01,0.00853063,1072.01,0.0304442,1072.01,0.0100729,1072.01,0.00692511,1072.01,0.0311543,1072.01,0.00865628,1072.01,0.0119065,1072.01,0.00936378,
1058.01,-0.000434667,1058.01,0.00466301,1058.01,0.0363128,1058.01,0.0108039,1058.01,0.00395566,1058.01,0.031538,1058.01,0.00952798,1058.01,0.00319046,1058.01,0.00864155,
1043.99,-0.00302766,1043.99,-0.0001837,1043.99,0.0314555,1043.99,0.00216831,1043.99,0.000647165,1043.99,0.0236313,1043.99,0.0123863,1043.99,-0.00193454,1043.99,0.00489602,
1029.99,-0.00108172,1029.99,-0.000549108,1029.99,0.0296425,1029.99,0.00255444,1029.99,-0.00359288,1029.99,0.0244946,1029.99,0.0134958,1029.99,0.000282171,1029.99,0.00197048,
1016.01,-0.00280622,1016.01,-0.000162533,1016.01,0.02697,1016.01,0.00330983,1016.01,-0.00277042,1016.01,0.0280827,1016.01,0.0121089,1016.01,-0.0019279,1016.01,0.000551022,
1002.01,0.00186263,1002.01,0.00324549,1002.01,0.030352,1002.01,0.00401647,1002.01,-0.000315953,1002.01,0.0322109,1002.01,0.0157723,1002.01,0.00201625,1002.01,0.00249039,
988.012,-0.000117248,988.012,0.00166463,988.012,0.0283258,988.012,0.00626756,988.012,0.000576734,988.012,0.0361998,988.012,0.018392,988.012,0.00253963,988.012,0.00378495,
973.992,-0.000412323,973.992,0.00075295,973.992,0.0278156,973.992,0.00542698,973.992,-0.000833453,973.992,0.040573,973.992,0.0191933,973.992,0.000979438,973.992,0.001888,
959.987,-4.71617e-05,959.987,0.00202649,959.987,0.0272197,959.987,0.00611033,959.987,0.000136233,959.987,0.0459855,959.987,0.0228753,959.987,0.00194606,959.987,0.00208405,
946.001,-0.000958431,946.001,0.00199833,946.001,0.0257778,946.001,0.00619542,946.001,-0.000144006,946.001,0.0531427,946.001,0.0251493,946.001,0.00110427,946.001,0.0018071,
932.006,0.000693158,932.006,0.00317513,932.006,0.026724,932.006,0.00758537,932.006,0.00082826,932.006,0.062363,932.006,0.0312011,932.006,0.00238608,932.006,0.00280652,
918.006,-0.000211178,918.006,0.00322577,918.006,0.0254455,918.006,0.00895029,918.006,0.000503126,918.006,0.0751706,918.006,0.0361482,918.006,0.0021431,918.006,0.00253715,
904.005,-0.000582923,904.005,0.00307459,904.005,0.02476,904.005,0.00995248,904.005,0.000377245,904.005,0.0894236,904.005,0.0425356,904.005,0.00191286,904.005,0.00286494,
890.006,-0.00117534,890.006,0.00314392,890.006,0.0233153,890.006,0.0107094,890.006,-0.000147059,890.006,0.109143,890.006,0.0512503,890.006,0.00191228,890.006,0.00288735,
876.013,0.000147083,876.013,0.00376111,876.013,0.0236758,876.013,0.0122643,876.013,0.000614864,876.013,0.134782,876.013,0.0630454,876.013,0.00256351,876.013,0.00317171,
861.996,0.000668165,861.996,0.00490288,861.996,0.0238206,861.996,0.0141364,861.996,0.00121487,861.996,0.170122,861.996,0.0774211,861.996,0.00391498,861.996,0.00438316,
847.99,-0.000350303,847.99,0.00620406,847.99,0.0230544,847.99,0.017876,847.99,0.000900418,847.99,0.216103,847.99,0.0959912,847.99,0.00358244,847.99,0.00388753,
834,0.000340223,834,0.00652684,834,0.0224981,834,0.0210358,834,0.000417223,834,0.273916,834,0.120993,834,0.00436054,834,0.00482576,
819.995,-0.000451527,819.995,0.00670339,819.995,0.0219234,819.995,0.0249146,819.995,-5.58066e-05,819.995,0.345036,819.995,0.153602,819.995,0.00501382,819.995,0.00584906,
806.011,0.000287792,806.011,0.00985846,806.011,0.0220601,806.011,0.0315997,806.011,0.000127792,806.011,0.417517,806.011,0.193661,806.011,0.00645934,806.011,0.00682199,
791.983,0.000676824,791.983,0.0117515,791.983,0.0220903,791.983,0.0391932,791.983,0.000266552,791.983,0.465487,791.983,0.240753,791.983,0.0078814,791.983,0.00808795,
778.016,-0.000274925,778.016,0.0138136,778.016,0.0211718,778.016,0.0483404,778.016,-0.000632761,778.016,0.46011,778.016,0.286246,778.016,0.00881758,778.016,0.0079705,
764.01,-0.000109018,764.01,0.016532,764.01,0.0219419,764.01,0.0625604,764.01,-0.000911213,764.01,0.403881,764.01,0.316462,764.01,0.0109322,764.01,0.0104007,
750.002,0.000268365,750.002,0.0216479,750.002,0.0227603,750.002,0.0823306,750.002,-0.000125218,750.002,0.328895,750.002,0.316504,750.002,0.0142064,750.002,0.0128557,
735.993,-7.24807e-07,735.993,0.0282798,735.993,0.0238655,735.993,0.109254,735.993,-0.000252574,735.993,0.258071,735.993,0.285747,735.993,0.0179424,735.993,0.0169566,
721.987,0.000191184,721.987,0.0384101,721.987,0.0257483,721.987,0.146655,721.987,-0.000512395,721.987,0.202093,721.987,0.238967,721.987,0.0230107,721.987,0.0212671,
707.985,-5.88089e-05,707.985,0.0531627,707.985,0.0286394,707.985,0.196678,707.985,-0.00038853,707.985,0.160396,707.985,0.190933,707.985,0.0308128,707.985,0.0284675,
693.99,0.000302687,693.99,0.0771584,693.99,0.0337971,693.99,0.260615,693.99,9.14648e-05,693.99,0.129519,693.99,0.151317,693.99,0.042331,693.99,0.0389058,
680.005,-4.975e-05,680.005,0.114442,680.005,0.0414841,680.005,0.332722,680.005,0.000289424,680.005,0.106099,680.005,0.120172,680.005,0.0585135,680.005,0.054298,
665.994,7.06486e-05,665.994,0.172592,665.994,0.0553186,665.994,0.396679,665.994,0.000703788,665.994,0.0886606,665.994,0.0963187,665.994,0.0842999,665.994,0.0782457,
651.997,0.000339109,651.997,0.251628,651.997,0.0777093,651.997,0.41495,651.997,0.0022162,651.997,0.075375,651.997,0.0788275,651.997,0.121406,651.997,0.114694,
638.015,0.000121319,638.015,0.327695,638.015,0.115159,638.015,0.375504,638.015,0.00385287,638.015,0.0650983,638.015,0.0648224,638.015,0.174264,638.015,0.168485,
624.014,-0.00018163,624.014,0.340053,624.014,0.171026,624.014,0.301155,624.014,0.00631969,624.014,0.0568296,624.014,0.0542479,624.014,0.237334,624.014,0.236372,
609.996,3.40673e-05,609.996,0.278036,609.996,0.240944,609.996,0.22647,609.996,0.0117825,609.996,0.0509927,609.996,0.0463124,609.996,0.290596,609.996,0.30016,
595.999,-0.000220027,595.999,0.19799,595.999,0.279395,595.999,0.169081,595.999,0.0186412,595.999,0.0465889,595.999,0.0406856,595.999,0.296029,595.999,0.315167,
581.987,0.000203408,581.987,0.137298,581.987,0.248118,581.987,0.129753,581.987,0.0257314,581.987,0.0448606,581.987,0.0377611,581.987,0.249893,581.987,0.268459,
568.001,0.000123986,568.001,0.0986147,568.001,0.182058,568.001,0.1043761,568.001,0.0269787,568.001,0.0475793,568.001,0.0394828,568.001,0.187102,568.001,0.198632,
554.003,0.000166427,554.003,0.074637,554.003,0.128307,554.003,0.0878389,554.003,0.0216486,554.003,0.0528909,554.003,0.0438904,554.003,0.134799,554.003,0.140409,
539.997,-1.32534e-05,539.997,0.0595704,539.997,0.093767,539.997,0.0757429,539.997,0.0148779,539.997,0.0574202,539.997,0.0480671,539.997,0.0988682,539.997,0.101433,
525.984,1.35903e-05,525.984,0.0499245,525.984,0.0724182,525.984,0.0662618,525.984,0.00985402,525.984,0.0600911,525.984,0.0507058,525.984,0.0766464,525.984,0.0777237,
512.002,-5.32701e-05,512.002,0.0446981,512.002,0.0601828,512.002,0.0584897,512.002,0.00668404,512.002,0.0609922,512.002,0.0519861,512.002,0.0628402,512.002,0.0633001,
498.016,-7.56322e-05,498.016,0.0436556,498.016,0.0553192,498.016,0.0524568,498.016,0.00515572,498.016,0.0609669,498.016,0.0523838,498.016,0.0533172,498.016,0.0536176,
483.989,4.49663e-05,483.989,0.0465698,483.989,0.0565248,483.989,0.0474499,483.989,0.00475476,483.989,0.0606433,483.989,0.052285,483.989,0.0458124,483.989,0.0462566,
469.999,0.000118911,469.999,0.0505879,469.999,0.0604833,469.999,0.0435219,469.999,0.00483194,469.999,0.060058,469.999,0.0518205,469.999,0.0400341,469.999,0.0405167,
456.009,-7.57875e-05,456.009,0.0536416,456.009,0.0637413,456.009,0.0405131,456.009,0.00523248,456.009,0.0593372,456.009,0.0513603,456.009,0.035384,456.009,0.0362437,
441.982,9.52614e-06,441.982,0.0558009,441.982,0.0667275,441.982,0.0379101,441.982,0.00541461,441.982,0.0587846,441.982,0.0510669,441.982,0.0318168,441.982,0.0328615,
427.996,-2.23131e-05,427.996,0.0570769,427.996,0.0685906,427.996,0.0355144,427.996,0.00566255,427.996,0.0584241,427.996,0.0508278,427.996,0.0289197,427.996,0.0299477,
414.015,-0.000116937,414.015,0.057998,414.015,0.0699518,414.015,0.0333678,414.015,0.00592355,414.015,0.0586056,414.015,0.0508742,414.015,0.026188,414.015,0.027326,
400.002,3.65008e-05,400.002,0.0583607,400.002,0.0707597,400.002,0.0309969,400.002,0.00628213,400.002,0.0589245,400.002,0.0512733,400.002,0.0236228,400.002,0.0248769,
385.995,-0.000117455,385.995,0.0583437,385.995,0.0706405,385.995,0.0283421,385.995,0.00620668,385.995,0.0598242,385.995,0.0518544,385.995,0.0210362,385.995,0.0221054,
371.996,-4.31756e-05,371.996,0.0579445,371.996,0.0699114,371.996,0.0260124,371.996,0.00609917,371.996,0.0609287,371.996,0.0530441,371.996,0.0187516,371.996,0.0198862,
358.007,3.93469e-06,358.007,0.057541,358.007,0.0694479,358.007,0.0231799,358.007,0.00626674,358.007,0.0622618,358.007,0.0542694,358.007,0.0177748,358.007,0.018726,
343.991,-4.82488e-05,343.991,0.0591802,343.991,0.0714379,343.991,0.0168498,343.991,0.00684332,343.991,0.0627397,343.991,0.0549374,343.991,0.014515,343.991,0.0151956,
329.986,-3.86719e-05,329.986,0.0620184,329.986,0.0752823,329.986,0.00796953,329.986,0.00817351,329.986,0.0636671,329.986,0.0561822,329.986,0.00773288,329.986,0.0087657,
315.995,0.000599544,315.995,0.0615287,315.995,0.0869129,315.995,0.0136031,315.995,0.0107793,315.995,0.0648687,315.995,0.0624171,315.995,0.0116742,315.995,0.0106195,
302.019,0.00349486,302.019,0.0779304,302.019,0.137373,302.019,0.0390962,302.019,0.0197061,302.019,0.0649722,302.019,0.0902281,302.019,0.0316863,302.019,0.0177241,
299.981,-0.0352066,299.981,0.0568433,299.981,0.0960811,299.981,0.0124492,299.981,-0.00517461,299.981,0.0649232,299.981,0.0903853,299.981,0.0123368,299.981,0.0337685,

Reference_SiO2,
Reference_SiO2
Collection Time: 9/27/2023 2:11:10 PM
Operator Name  :
Scan Version 5.0.0.999
Parameter List :
Instrument  Cary 60
Instrument Version  2.00
Start (nm)  1100.0
Stop (nm)  300.0
X Mode  Nanometers
Y Mode  Abs
UV-Vis Scan Rate (nm/min)  600.00
UV-Vis Data Interval (nm)  1.00
UV-Vis Ave. Time (sec)  0.1000
Beam Mode  Dual Beam
Baseline Correction  On
Baseline Type  Baseline correction
Baseline File Name
Baseline Std Ref File Name
Cycle Mode  Off
Method Log     :
Method Name    :
Date/Time stamp: 9/27/2023 12:31:01 PM
Method Modifications:
UVVIS SAT Changed: 9/27/2023 2:08:55 PM, Old:0.0125, New:0.1000
Common SAT Changed: 9/27/2023 2:08:55 PM, Old:0.0125, New:0.1000
X Start nm Changed: 9/27/2023 2:09:07 PM, Old:  800.0, New: 1100.0
X Stop nm Changed: 9/27/2023 2:09:07 PM, Old:  200.0, New:  300.0
Y Max Abs Changed: 9/27/2023 2:09:07 PM, Old:     1.00, New:     1.05
Common Interval nm Changed: 9/27/2023 2:09:07 PM, Old:     5.00, New:     1.00
Baseline Correction Changed: 9/27/2023 2:09:17 PM, Old:0, New:1
End Method Modifications
<Current Wavelength> , 306.0

Sample_A,
Sample_A
Collection Time: 9/27/2023 2:19:16 PM
Operator Name  :
Scan Version 5.0.0.999
Parameter List :
Instrument  Cary 60
Instrument Version  2.00
Start (nm)  1100.0
Stop (nm)  300.0
X Mode  Nanometers
Y Mode  Abs
UV-Vis Scan Rate (nm/min)  600.00
UV-Vis Data Interval (nm)  1.00
UV-Vis Ave. Time (sec)  0.1000
Beam Mode  Dual Beam
Baseline Correction  On
Baseline Type  Baseline correction
Baseline File Name
Baseline Std Ref File Name
Cycle Mode  Off
Method Log     :
Method Name    :
Date/Time stamp: 9/27/2023 12:31:01 PM
Method Modifications:
UVVIS SAT Changed: 9/27/2023 2:08:55 PM, Old:0.0125, New:0.1000
Common SAT Changed: 9/27/2023 2:08:55 PM, Old:0.0125, New:0.1000
X Start nm Changed: 9/27/2023 2:09:07 PM, Old:  800.0, New: 1100.0
X Stop nm Changed: 9/27/2023 2:09:07 PM, Old:  200.0, New:  300.0
Y Max Abs Changed: 9/27/2023 2:09:07 PM, Old:     1.00, New:     1.05
Common Interval nm Changed: 9/27/2023 2:09:07 PM, Old:     5.00, New:     1.00
Baseline Correction Changed: 9/27/2023 2:09:17 PM, Old:0, New:1
End Method Modifications
<Current Wavelength> , 301.0

Sample_B,
Sample_B
Collection Time: 9/27/2023 2:23:34 PM
Operator Name  :
Scan Version 5.0.0.999
Parameter List :
Instrument  Cary 60
Instrument Version  2.00
Start (nm)  1100.0
Stop (nm)  300.0
X Mode  Nanometers
Y Mode  Abs
UV-Vis Scan Rate (nm/min)  600.00
UV-Vis Data Interval (nm)  1.00
UV-Vis Ave. Time (sec)  0.1000
Beam Mode  Dual Beam
Baseline Correction  On
Baseline Type  Baseline correction
Baseline File Name
Baseline Std Ref File Name
Cycle Mode  Off
Method Log     :
Method Name    :
Date/Time stamp: 9/27/2023 12:31:01 PM
Method Modifications:
UVVIS SAT Changed: 9/27/2023 2:08:55 PM, Old:0.0125, New:0.1000
Common SAT Changed: 9/27/2023 2:08:55 PM, Old:0.0125, New:0.1000
X Start nm Changed: 9/27/2023 2:09:07 PM, Old:  800.0, New: 1100.0
X Stop nm Changed: 9/27/2023 2:09:07 PM, Old:  200.0, New:  300.0
Y Max Abs Changed: 9/27/2023 2:09:07 PM, Old:     1.00, New:     1.05
Common Interval nm Changed: 9/27/2023 2:09:07 PM, Old:     5.00, New:     1.00
Baseline Correction Changed: 9/27/2023 2:09:17 PM, Old:0, New:1
End Method Modifications
<Current Wavelength> , 304.0

Sample_C,
Sample_C
Collection Time: 9/27/2023 2:26:49 PM
Operator Name  :
Scan Version 5.0.0.999
Parameter List :
Instrument  Cary 60
Instrument Version  2.00
Start (nm)  1100.0
Stop (nm)  300.0
X Mode  Nanometers
Y Mode  Abs
UV-Vis Scan Rate (nm/min)  600.00
UV-Vis Data Interval (nm)  1.00
UV-Vis Ave. Time (sec)  0.1000
Beam Mode  Dual Beam
Baseline Correction  On
Baseline Type  Baseline correction
Baseline File Name
Baseline Std Ref File Name
Cycle Mode  Off
Method Log     :
Method Name    :
Date/Time stamp: 9/27/2023 12:31:01 PM
Method Modifications:
UVVIS SAT Changed: 9/27/2023 2:08:55 PM, Old:0.0125, New:0.1000
Common SAT Changed: 9/27/2023 2:08:55 PM, Old:0.0125, New:0.1000
X Start nm Changed: 9/27/2023 2:09:07 PM, Old:  800.0, New: 1100.0
X Stop nm Changed: 9/27/2023 2:09:07 PM, Old:  200.0, New:  300.0
Y Max Abs Changed: 9/27/2023 2:09:07 PM, Old:     1.00, New:     1.05
Common Interval nm Changed: 9/27/2023 2:09:07 PM, Old:     5.00, New:     1.00
Baseline Correction Changed: 9/27/2023 2:09:17 PM, Old:0, New:1
End Method Modifications
<Current Wavelength> , 306.0

Sample_D,
Sample_D
Collection Time: 9/27/2023 2:29:37 PM
Operator Name  :
Scan Version 5.0.0.999
Parameter List :
Instrument  Cary 60
Instrument Version  2.00
Start (nm)  1100.0
Stop (nm)  300.0
X Mode  Nanometers
Y Mode  Abs
UV-Vis Scan Rate (nm/min)  600.00
UV-Vis Data Interval (nm)  1.00
UV-Vis Ave. Time (sec)  0.1000
Beam Mode  Dual Beam
Baseline Correction  On
Baseline Type  Baseline correction
Baseline File Name
Baseline Std Ref File Name
Cycle Mode  Off
Method Log     :
Method Name    :
Date/Time stamp: 9/27/2023 12:31:01 PM
Method Modifications:
UVVIS SAT Changed: 9/27/2023 2:08:55 PM, Old:0.0125, New:0.1000
Common SAT Changed: 9/27/2023 2:08:55 PM, Old:0.0125, New:0.1000
X Start nm Changed: 9/27/2023 2:09:07 PM, Old:  800.0, New: 1100.0
X Stop nm Changed: 9/27/2023 2:09:07 PM, Old:  200.0, New:  300.0
Y Max Abs Changed: 9/27/2023 2:09:07 PM, Old:     1.00, New:     1.05
Common Interval nm Changed: 9/27/2023 2:09:07 PM, Old:     5.00, New:     1.00
Baseline Correction Changed: 9/27/2023 2:09:17 PM, Old:0, New:1
End Method Modifications
<Current Wavelength> , 308.0

Sample_E,
Sample_E
Collection Time: 9/27/2023 2:34:03 PM
Operator Name  :
Scan Version 5.0.0.999
Parameter List :
Instrument  Cary 60
Instrument Version  2.00
Start (nm)  1100.0
Stop (nm)  300.0
X Mode  Nanometers
Y Mode  Abs
UV-Vis Scan Rate (nm/min)  600.00
UV-Vis Data Interval (nm)  1.00
UV-Vis Ave. Time (sec)  0.1000
Beam Mode  Dual Beam
Baseline Correction  On
Baseline Type  Baseline correction
Baseline File Name
Baseline Std Ref File Name
Cycle Mode  Off
Method Log     :
Method Name    :
Date/Time stamp: 9/27/2023 12:31:01 PM
Method Modifications:
UVVIS SAT Changed: 9/27/2023 2:08:55 PM, Old:0.0125, New:0.1000
Common SAT Changed: 9/27/2023 2:08:55 PM, Old:0.0125, New:0.1000
X Start nm Changed: 9/27/2023 2:09:07 PM, Old:  800.0, New: 1100.0
X Stop nm Changed: 9/27/2023 2:09:07 PM, Old:  200.0, New:  300.0
Y Max Abs Changed: 9/27/2023 2:09:07 PM, Old:     1.00, New:     1.05
Common Interval nm Changed: 9/27/2023 2:09:07 PM, Old:     5.00, New:     1.00
Baseline Correction Changed: 9/27/2023 2:09:17 PM, Old:0, New:1
End Method Modifications
<Current Wavelength> , 303.0

Sample_F,
Sample_F
Collection Time: 9/27/2023 2:37:26 PM
Operator Name  :
Scan Version 5.0.0.999
Parameter List :
Instrument  Cary 60
Instrument Version  2.00
Start (nm)  1100.0
Stop (nm)  300.0
X Mode  Nanometers
Y Mode  Abs
UV-Vis Scan Rate (nm/min)  600.00
UV-Vis Data Interval (nm)  1.00
UV-Vis Ave. Time (sec)  0.1000
Beam Mode  Dual Beam
Baseline Correction  On
Baseline Type  Baseline correction
Baseline File Name
Baseline Std Ref File Name
Cycle Mode  Off
Method Log     :
Method Name    :
Date/Time stamp: 9/27/2023 12:31:01 PM
Method Modifications:
UVVIS SAT Changed: 9/27/2023 2:08:55 PM, Old:0.0125, New:0.1000
Common SAT Changed: 9/27/2023 2:08:55 PM, Old:0.0125, New:0.1000
X Start nm Changed: 9/27/2023 2:09:07 PM, Old:  800.0, New: 1100.0
X Stop nm Changed: 9/27/2023 2:09:07 PM, Old:  200.0, New:  300.0
Y Max Abs Changed: 9/27/2023 2:09:07 PM, Old:     1.00, New:     1.05
Common Interval nm Changed: 9/27/2023 2:09:07 PM, Old:     5.00, New:     1.00
Baseline Correction Changed: 9/27/2023 2:09:17 PM, Old:0, New:1
End Method Modifications
<Current Wavelength> , 303.0

Sample_G,
Sample_G
Collection Time: 9/27/2023 2:42:30 PM
Operator Name  :
Scan Version 5.0.0.999
Parameter List :
Instrument  Cary 60
Instrument Version  2.00
Start (nm)  1100.0
Stop (nm)  300.0
X Mode  Nanometers
Y Mode  Abs
UV-Vis Scan Rate (nm/min)  600.00
UV-Vis Data Interval (nm)  1.00
UV-Vis Ave. Time (sec)  0.1000
Beam Mode  Dual Beam
Baseline Correction  On
Baseline Type  Baseline correction
Baseline File Name
Baseline Std Ref File Name
Cycle Mode  Off
Method Log     :
Method Name    :
Date/Time stamp: 9/27/2023 12:31:01 PM
Method Modifications:
UVVIS SAT Changed: 9/27/2023 2:08:55 PM, Old:0.0125, New:0.1000
Common SAT Changed: 9/27/2023 2:08:55 PM, Old:0.0125, New:0.1000
X Start nm Changed: 9/27/2023 2:09:07 PM, Old:  800.0, New: 1100.0
X Stop nm Changed: 9/27/2023 2:09:07 PM, Old:  200.0, New:  300.0
Y Max Abs Changed: 9/27/2023 2:09:07 PM, Old:     1.00, New:     1.05
Common Interval nm Changed: 9/27/2023 2:09:07 PM, Old:     5.00, New:     1.00
Baseline Correction Changed: 9/27/2023 2:09:17 PM, Old:0, New:1
End Method Modifications
<Current Wavelength> , 300.0

Sample_G_flipped,
Sample_G_flipped
Collection Time: 9/27/2023 2:45:16 PM
Operator Name  :
Scan Version 5.0.0.999
Parameter List :
Instrument  Cary 60
Instrument Version  2.00
Start (nm)  1100.0
Stop (nm)  300.0
X Mode  Nanometers
Y Mode  Abs
UV-Vis Scan Rate (nm/min)  600.00
UV-Vis Data Interval (nm)  1.00
UV-Vis Ave. Time (sec)  0.1000
Beam Mode  Dual Beam
Baseline Correction  On
Baseline Type  Baseline correction
Baseline File Name
Baseline Std Ref File Name
Cycle Mode  Off
Method Log     :
Method Name    :
Date/Time stamp: 9/27/2023 12:31:01 PM
Method Modifications:
UVVIS SAT Changed: 9/27/2023 2:08:55 PM, Old:0.0125, New:0.1000
Common SAT Changed: 9/27/2023 2:08:55 PM, Old:0.0125, New:0.1000
X Start nm Changed: 9/27/2023 2:09:07 PM, Old:  800.0, New: 1100.0
X Stop nm Changed: 9/27/2023 2:09:07 PM, Old:  200.0, New:  300.0
Y Max Abs Changed: 9/27/2023 2:09:07 PM, Old:     1.00, New:     1.05
Common Interval nm Changed: 9/27/2023 2:09:07 PM, Old:     5.00, New:     1.00
Baseline Correction Changed: 9/27/2023 2:09:17 PM, Old:0, New:1
End Method Modifications
<Current Wavelength> , 303.0